Folder: data-science-portfolio/phd_uvvis_analysis/PolymerB

Note: phd_uvvis_analysis/README.md
# UV-Vis Analysis
Python pipeline for batch processing UV-Vis spectra, reducing manual absorbance extraction from ~20 minutes per 5 spectra to seconds. Built to streamline Beer-Lambert analysis during PhD research.

## Problem
During photostability research, I needed to determine Beer-Lambert coefficients for 8-10 compounds, each requiring analysis of 5 concentration-series spectra:

1. Manually import each UV-Vis spectrum into Excel

2. Plot to identify the peak wavelength
3. Record absorbance at the peak
4. Extract absorbance at the same wavelength across all 5 concentrations
5. Repeat for the next compound

This workflow took ~15-20 minutes per compound (5 spectra) and was prone to transcription errors when manually copying absorbance values between files. Analyzing a full experimental set (40-50 spectra) required 2-3 hours of repetitive data entry.

## Solution
Built an object-oriented Python pipeline with three main components:

### UVVisProcessor

- Batch imports all .txt files from Shimadzu spectrometer output

- Automatically filters to specified wavelength range (e.g., 380-760 nm for visible light)

- Quality control: detects and excludes oversaturated spectra

### UVVisAnalyzer

- Identifies peak wavelengths using scipy signal processing

- Extracts absorbance values at specified wavelengths across all spectra

- Configurable peak detection sensitivity for different compound types

### UVVisVisualizer

- Plots multiple spectra with automatic peak annotation

- Enables quick visual verification before extracting values for Beer-Lambert analysis

The pipeline processes an entire compound set (5 spectra) in seconds rather than 20 minutes, with absorbance values exported directly for linear regression.

## Results

- Reduced analysis time from 2-3 hours to ~10 minutes per experimental set (40-50 spectra)

- Eliminated transcription errors by programmatically extracting values

- Successfully analyzed 8 organic compounds for Beer-Lambert coefficient determination

## Technologies
Python | Pandas | NumPy | SciPy | Matplotlib

File: PolymerB_0.txt
"RawData"
"Wavelength nm."	"Abs."
200.00
203.00
206.00
209.00
212.00
215.00
218.00
221.00
224.00
227.00
230.00
233.00
236.00
239.00
242.00
245.00
248.00
251.00	2.934102
254.00	2.618893
257.00	2.207279
260.00	1.857236
263.00	1.630943
266.00	1.520259
269.00	1.496041
272.00	1.543880
275.00	1.653473
278.00	1.822580
281.00	2.060873
284.00	2.355835
287.00	2.686629
290.00	3.014184
293.00	3.270963
296.00	3.386799
299.00	3.461116
302.00	3.459977
305.00	3.487245
308.00	3.546367
311.00	3.562899
314.00	3.569739
317.00	3.575599
320.00	3.592474
323.00	3.571442
326.00	3.574215
329.00	3.606140
332.00	3.550970
335.00	3.599906
338.00	3.580111
341.00	3.566826
344.00	3.534464
347.00	3.257121
350.00	2.618458
353.00	2.012880
356.00	1.633530
359.00	1.455667
362.00	1.407178
365.00	1.437140
368.00	1.509960
371.00	1.612804
374.00	1.734810
377.00	1.872683
380.00	2.017685
383.00	2.174767
386.00	2.341496
389.00	2.516833
392.00	2.694602
395.00	2.857941
398.00	3.034448
401.00	3.182537
404.00	3.309101
407.00	3.405107
410.00	3.482420
413.00	3.517999
416.00	3.539942
419.00	3.513972
422.00	3.525284
425.00	3.519296
428.00	3.526747
431.00	3.518903
434.00	3.524376
437.00	3.514933
440.00	3.499507
443.00	3.508529
446.00	3.495525
449.00	3.494308
452.00	3.494182
455.00	3.488506
458.00	3.477075
461.00	3.464328
464.00	3.455271
467.00	3.456052
470.00	3.438550
473.00	3.419885
476.00	3.337480
479.00	3.114747
482.00	2.712164
485.00	2.225170
488.00	1.761638
491.00	1.360482
494.00	1.021903
497.00	0.754452
500.00	0.542870
503.00	0.380352
506.00	0.264891
509.00	0.180702
512.00	0.120489
515.00	0.079798
518.00	0.051992
521.00	0.032936
524.00	0.020270
527.00	0.011928
530.00	0.006633
533.00	0.003050
536.00	0.000680
539.00	-0.001582
542.00	-0.002463
545.00	-0.002807
548.00	-0.003383
551.00	-0.003536
554.00	-0.003809
557.00	-0.003679
560.00	-0.003506
563.00	-0.003711
566.00	-0.003399
569.00	-0.003426
572.00	-0.003518
575.00	-0.003369
578.00	-0.003683
581.00	-0.003514
584.00	-0.003453
587.00	-0.003331
590.00	-0.003247
593.00	-0.003054
596.00	-0.002966
599.00	-0.002900
602.00	-0.002711
605.00	-0.002643
608.00	-0.002808
611.00	-0.002666
614.00	-0.002715
617.00	-0.002529
620.00	-0.002507
623.00	-0.002103
626.00	-0.002047
629.00	-0.001853
632.00	-0.001848
635.00	-0.001973
638.00	-0.001697
641.00	-0.001794
644.00	-0.001794
647.00	-0.001363
650.00	-0.001573
653.00	-0.001477
656.00	-0.001148
659.00	-0.001091
662.00	-0.001138
665.00	-0.000979
668.00	-0.000925
671.00	-0.000983
674.00	-0.001033
677.00	-0.001053
680.00	-0.000646
683.00	-0.000887
686.00	-0.000434
689.00	-0.000254
692.00	-0.000327
695.00	-0.000101
698.00	0.000030
701.00
704.00
707.00
710.00
713.00
716.00
719.00
722.00
725.00
728.00
731.00
734.00
737.00
740.00
743.00
746.00
749.00
752.00
755.00
758.00
761.00
764.00
767.00
770.00
773.00
776.00
779.00
782.00
785.00
788.00
791.00
794.00
797.00
800.00
803.00
806.00
809.00
812.00
815.00
818.00
821.00
824.00
827.00
830.00
833.00
836.00
839.00
842.00
845.00
848.00
851.00
854.00
857.00
860.00
863.00
866.00
869.00
872.00
875.00
878.00
881.00
884.00
887.00
890.00
893.00
896.00
899.00
900.00

File: PolymerB_3.txt
"RawData"
"Wavelength nm."	"Abs."
200.00
203.00
206.00
209.00
212.00
215.00
218.00
221.00
224.00
227.00
230.00
233.00
236.00
239.00
242.00
245.00
248.00
251.00	0.125428
254.00	0.105491
257.00	0.083530
260.00	0.064967
263.00	0.054263
266.00	0.048807
269.00	0.048464
272.00	0.051322
275.00	0.056244
278.00	0.063778
281.00	0.074334
284.00	0.088210
287.00	0.104977
290.00	0.124169
293.00	0.147128
296.00	0.172712
299.00	0.197345
302.00	0.222438
305.00	0.246708
308.00	0.266818
311.00	0.281274
314.00	0.286019
317.00	0.289492
320.00	0.296419
323.00	0.287175
326.00	0.272770
329.00	0.263594
332.00	0.262501
335.00	0.261080
338.00	0.251605
341.00	0.227512
344.00	0.188207
347.00	0.142317
350.00	0.102245
353.00	0.072815
356.00	0.054658
359.00	0.046488
362.00	0.044521
365.00	0.046485
368.00	0.049874
371.00	0.054477
374.00	0.059782
377.00	0.066520
380.00	0.073152
383.00	0.080703
386.00	0.088689
389.00	0.096735
392.00	0.106245
395.00	0.115517
398.00	0.125314
401.00	0.135724
404.00	0.147130
407.00	0.158498
410.00	0.170710
413.00	0.183751
416.00	0.196683
419.00	0.210417
422.00	0.223433
425.00	0.236570
428.00	0.249281
431.00	0.261577
434.00	0.272832
437.00	0.283014
440.00	0.291287
443.00	0.297879
446.00	0.302700
449.00	0.305421
452.00	0.304680
455.00	0.301224
458.00	0.293062
461.00	0.281768
464.00	0.266295
467.00	0.245764
470.00	0.222049
473.00	0.196561
476.00	0.168750
479.00	0.141438
482.00	0.114689
485.00	0.089971
488.00	0.068759
491.00	0.050405
494.00	0.035064
497.00	0.023036
500.00	0.013715
503.00	0.006617
506.00	0.001442
509.00	-0.002241
512.00	-0.004983
515.00	-0.006660
518.00	-0.007802
521.00	-0.008520
524.00	-0.008758
527.00	-0.008757
530.00	-0.008906
533.00	-0.008936
536.00	-0.008887
539.00	-0.009474
542.00	-0.009579
545.00	-0.009381
548.00	-0.008952
551.00	-0.009032
554.00	-0.009075
557.00	-0.008815
560.00	-0.008436
563.00	-0.008640
566.00	-0.008246
569.00	-0.008304
572.00	-0.008245
575.00	-0.008146
578.00	-0.007990
581.00	-0.007789
584.00	-0.007735
587.00	-0.007416
590.00	-0.007252
593.00	-0.007195
596.00	-0.006972
599.00	-0.006913
602.00
605.00
608.00
611.00
614.00
617.00
620.00
623.00
626.00
629.00
632.00
635.00
638.00
641.00
644.00
647.00
650.00
653.00
656.00
659.00
662.00
665.00
668.00
671.00
674.00
677.00
680.00
683.00
686.00
689.00
692.00
695.00
698.00
701.00
704.00
707.00
710.00
713.00
716.00
719.00
722.00
725.00
728.00
731.00
734.00
737.00
740.00
743.00
746.00
749.00
752.00
755.00
758.00
761.00
764.00
767.00
770.00
773.00
776.00
779.00
782.00
785.00
788.00
791.00
794.00
797.00
800.00
803.00
806.00
809.00
812.00
815.00
818.00
821.00
824.00
827.00
830.00
833.00
836.00
839.00
842.00
845.00
848.00
851.00
854.00
857.00
860.00
863.00
866.00
869.00
872.00
875.00
878.00
881.00
884.00
887.00
890.00
893.00
896.00
899.00
900.00

File: PolymerB_4.txt
"RawData"
"Wavelength nm."	"Abs."
200.00
203.00
206.00
209.00
212.00
215.00
218.00
221.00
224.00
227.00
230.00
233.00
236.00
239.00
242.00
245.00
248.00
251.00	0.051938
254.00	0.043668
257.00	0.033233
260.00	0.025210
263.00	0.020812
266.00	0.016917
269.00	0.016270
272.00	0.016452
275.00	0.019429
278.00	0.022283
281.00	0.026849
284.00	0.034192
287.00	0.041823
290.00	0.050277
293.00	0.061131
296.00	0.074947
299.00	0.086307
302.00	0.099126
305.00	0.111351
308.00	0.122510
311.00	0.130140
314.00	0.131888
317.00	0.132776
320.00	0.135496
323.00	0.132234
326.00	0.125008
329.00	0.121027
332.00	0.120945
335.00	0.120989
338.00	0.115661
341.00	0.103546
344.00	0.085111
347.00	0.063049
350.00	0.044409
353.00	0.029225
356.00	0.020090
359.00	0.016347
362.00	0.015714
365.00	0.016684
368.00	0.018129
371.00	0.020445
374.00	0.022735
377.00	0.025963
380.00	0.028847
383.00	0.032191
386.00	0.036052
389.00	0.040012
392.00	0.044739
395.00	0.049130
398.00	0.053778
401.00	0.058835
404.00	0.064698
407.00	0.069910
410.00	0.075836
413.00	0.082229
416.00	0.088863
419.00	0.095329
422.00	0.101876
425.00	0.108450
428.00	0.114377
431.00	0.120457
434.00	0.126127
437.00	0.130971
440.00	0.134892
443.00	0.138227
446.00	0.140553
449.00	0.141966
452.00	0.141959
455.00	0.140319
458.00	0.136302
461.00	0.130794
464.00	0.123460
467.00	0.113936
470.00	0.102524
473.00	0.090265
476.00	0.076988
479.00	0.063766
482.00	0.051370
485.00	0.039060
488.00	0.029292
491.00	0.020564
494.00	0.013162
497.00	0.007580
500.00	0.002970
503.00	-0.000217
506.00	-0.002268
509.00	-0.004095
512.00	-0.005522
515.00	-0.006082
518.00	-0.006477
521.00	-0.006895
524.00	-0.006760
527.00	-0.006629
530.00	-0.006738
533.00	-0.006669
536.00	-0.006547
539.00	-0.007124
542.00	-0.007060
545.00	-0.006602
548.00	-0.006788
551.00	-0.006411
554.00	-0.006658
557.00	-0.006265
560.00	-0.006035
563.00	-0.005867
566.00	-0.005575
569.00	-0.005368
572.00	-0.005452
575.00	-0.005300
578.00	-0.005117
581.00	-0.004965
584.00	-0.004861
587.00	-0.004486
590.00	-0.004660
593.00	-0.004370
596.00	-0.004232
599.00	-0.004309
602.00
605.00
608.00
611.00
614.00
617.00
620.00
623.00
626.00
629.00
632.00
635.00
638.00
641.00
644.00
647.00
650.00
653.00
656.00
659.00
662.00
665.00
668.00
671.00
674.00
677.00
680.00
683.00
686.00
689.00
692.00
695.00
698.00
701.00
704.00
707.00
710.00
713.00
716.00
719.00
722.00
725.00
728.00
731.00
734.00
737.00
740.00
743.00
746.00
749.00
752.00
755.00
758.00
761.00
764.00
767.00
770.00
773.00
776.00
779.00
782.00
785.00
788.00
791.00
794.00
797.00
800.00
803.00
806.00
809.00
812.00
815.00
818.00
821.00
824.00
827.00
830.00
833.00
836.00
839.00
842.00
845.00
848.00
851.00
854.00
857.00
860.00
863.00
866.00
869.00
872.00
875.00
878.00
881.00
884.00
887.00
890.00
893.00
896.00
899.00
900.00