Folder: data-science-portfolio/phd_uvvis_analysis/PolymerA

Note: phd_uvvis_analysis/README.md
# UV-Vis Analysis
Python pipeline for batch processing UV-Vis spectra, reducing manual absorbance extraction from ~20 minutes per 5 spectra to seconds. Built to streamline Beer-Lambert analysis during PhD research.

## Problem
During photostability research, I needed to determine Beer-Lambert coefficients for 8-10 compounds, each requiring analysis of 5 concentration-series spectra:

1. Manually import each UV-Vis spectrum into Excel

2. Plot to identify the peak wavelength
3. Record absorbance at the peak
4. Extract absorbance at the same wavelength across all 5 concentrations
5. Repeat for the next compound

This workflow took ~15-20 minutes per compound (5 spectra) and was prone to transcription errors when manually copying absorbance values between files. Analyzing a full experimental set (40-50 spectra) required 2-3 hours of repetitive data entry.

## Solution
Built an object-oriented Python pipeline with three main components:

### UVVisProcessor

- Batch imports all .txt files from Shimadzu spectrometer output

- Automatically filters to specified wavelength range (e.g., 380-760 nm for visible light)

- Quality control: detects and excludes oversaturated spectra

### UVVisAnalyzer

- Identifies peak wavelengths using scipy signal processing

- Extracts absorbance values at specified wavelengths across all spectra

- Configurable peak detection sensitivity for different compound types

### UVVisVisualizer

- Plots multiple spectra with automatic peak annotation

- Enables quick visual verification before extracting values for Beer-Lambert analysis

The pipeline processes an entire compound set (5 spectra) in seconds rather than 20 minutes, with absorbance values exported directly for linear regression.

## Results

- Reduced analysis time from 2-3 hours to ~10 minutes per experimental set (40-50 spectra)

- Eliminated transcription errors by programmatically extracting values

- Successfully analyzed 8 organic compounds for Beer-Lambert coefficient determination

## Technologies
Python | Pandas | NumPy | SciPy | Matplotlib

File: PolymerA_1.txt
"RawData"
"Wavelength nm."	"Abs."
300.00	0.478050
303.00	0.458952
306.00	0.445388
309.00	0.428776
312.00	0.414376
315.00	0.400054
318.00	0.384681
321.00	0.368933
324.00	0.357817
327.00	0.348648
330.00	0.345231
333.00	0.344401
336.00	0.346175
339.00	0.347834
342.00	0.349936
345.00	0.352004
348.00	0.356875
351.00	0.359936
354.00	0.363534
357.00	0.368337
360.00	0.374745
363.00	0.382801
366.00	0.392777
369.00	0.403153
372.00	0.416764
375.00	0.432059
378.00	0.449125
381.00	0.468437
384.00	0.489739
387.00	0.513647
390.00	0.539498
393.00	0.567411
396.00	0.596695
399.00	0.628292
402.00	0.662548
405.00	0.698750
408.00	0.735391
411.00	0.774905
414.00	0.814145
417.00	0.854898
420.00	0.894639
423.00	0.934277
426.00	0.971441
429.00	1.006979
432.00	1.040176
435.00	1.071377
438.00	1.096220
441.00	1.116621
444.00	1.129665
447.00	1.135888
450.00	1.133613
453.00	1.125036
456.00	1.106645
459.00	1.081120
462.00	1.048623
465.00	1.009131
468.00	0.960571
471.00	0.906276
474.00	0.842750
477.00	0.769168
480.00	0.688267
483.00	0.600904
486.00	0.512006
489.00	0.424126
492.00	0.340513
495.00	0.263183
498.00	0.198319
501.00	0.143768
504.00	0.102028
507.00	0.071569
510.00	0.050528
513.00	0.036454
516.00	0.027452
519.00	0.022492
522.00	0.019201
525.00	0.017327
528.00	0.016517
531.00	0.015926
534.00	0.015376
537.00	0.014663
540.00	0.014704
543.00	0.014380
546.00	0.014400
549.00	0.014415
552.00	0.014402
555.00	0.014437
558.00	0.014370
561.00	0.014428
564.00	0.014085
567.00	0.013968
570.00	0.014039
573.00	0.014038
576.00	0.014079
579.00	0.013987
582.00	0.014033
585.00	0.013624
588.00	0.013895
591.00	0.013811
594.00	0.013531
597.00	0.013811
600.00	0.013493
603.00	0.013800
606.00	0.013676
609.00	0.013635
612.00	0.013464
615.00	0.013248
618.00	0.013317
621.00	0.013412
624.00	0.013506
627.00	0.013502
630.00	0.013512
633.00	0.013568
636.00	0.013465
639.00	0.013333
642.00	0.013356
645.00	0.013408
648.00	0.013128
651.00	0.013542
654.00	0.013397
657.00	0.013113
660.00	0.013308
663.00	0.013280
666.00	0.013164
669.00	0.013194
672.00	0.013248
675.00	0.013297
678.00	0.013188
681.00	0.012933
684.00	0.012864
687.00	0.013008
690.00	0.012694
693.00	0.012692
696.00	0.013201
699.00	0.012769
702.00
705.00
708.00
711.00
714.00
717.00
720.00
723.00
726.00
729.00
732.00
735.00
738.00
741.00
744.00
747.00
750.00
753.00
756.00
759.00
762.00
765.00
768.00
771.00
774.00
777.00
780.00
783.00
786.00
789.00
792.00
795.00
798.00
801.00
804.00
807.00
810.00
813.00
816.00
819.00
822.00
825.00
828.00
831.00
834.00
837.00
840.00
843.00
846.00
849.00
852.00
855.00
858.00
861.00
864.00
867.00
870.00
873.00
876.00
879.00
882.00
885.00
888.00
891.00
894.00
897.00
900.00

File: PolymerA_2.txt
"RawData"
"Wavelength nm."	"Abs."
300.00	0.235085
303.00	0.226819
306.00	0.220276
309.00	0.212284
312.00	0.204596
315.00	0.196869
318.00	0.189474
321.00	0.183089
324.00	0.177432
327.00	0.173726
330.00	0.172711
333.00	0.171664
336.00	0.172779
339.00	0.173764
342.00	0.174542
345.00	0.176021
348.00	0.177999
351.00	0.178978
354.00	0.179971
357.00	0.182205
360.00	0.185207
363.00	0.188018
366.00	0.192215
369.00	0.197023
372.00	0.201656
375.00	0.209611
378.00	0.216819
381.00	0.225905
384.00	0.235379
387.00	0.246714
390.00	0.258735
393.00	0.271967
396.00	0.285512
399.00	0.299935
402.00	0.316357
405.00	0.333547
408.00	0.350735
411.00	0.369144
414.00	0.387536
417.00	0.407105
420.00	0.425146
423.00	0.443660
426.00	0.461465
429.00	0.477624
432.00	0.493298
435.00	0.507478
438.00	0.519551
441.00	0.528419
444.00	0.534437
447.00	0.536789
450.00	0.536140
453.00	0.531687
456.00	0.522669
459.00	0.510526
462.00	0.495577
465.00	0.476320
468.00	0.453901
471.00	0.427515
474.00	0.397419
477.00	0.363211
480.00	0.324561
483.00	0.284158
486.00	0.242048
489.00	0.200871
492.00	0.162113
495.00	0.125945
498.00	0.096255
501.00	0.070510
504.00	0.051170
507.00	0.037289
510.00	0.027190
513.00	0.021177
516.00	0.017027
519.00	0.014575
522.00	0.012904
525.00	0.012065
528.00	0.011718
531.00	0.011442
534.00	0.011265
537.00	0.010829
540.00	0.010863
543.00	0.010409
546.00	0.010416
549.00	0.010732
552.00	0.010432
555.00	0.010682
558.00	0.010467
561.00	0.010421
564.00	0.010244
567.00	0.010112
570.00	0.009972
573.00	0.010057
576.00	0.010104
579.00	0.010191
582.00	0.010100
585.00	0.009857
588.00	0.009898
591.00	0.010006
594.00	0.009691
597.00	0.009833
600.00	0.009789
603.00	0.009737
606.00	0.009694
609.00	0.009757
612.00	0.009712
615.00	0.009679
618.00	0.009543
621.00	0.009485
624.00	0.009861
627.00	0.009674
630.00	0.009667
633.00	0.009743
636.00	0.009601
639.00	0.009798
642.00	0.009628
645.00	0.009485
648.00	0.009431
651.00	0.009622
654.00	0.009409
657.00	0.009248
660.00	0.009417
663.00	0.009596
666.00	0.009053
669.00	0.009648
672.00	0.009493
675.00	0.009533
678.00	0.009364
681.00	0.009464
684.00	0.009445
687.00	0.009591
690.00	0.009357
693.00	0.009175
696.00	0.009561
699.00	0.009213
702.00
705.00
708.00
711.00
714.00
717.00
720.00
723.00
726.00
729.00
732.00
735.00
738.00
741.00
744.00
747.00
750.00
753.00
756.00
759.00
762.00
765.00
768.00
771.00
774.00
777.00
780.00
783.00
786.00
789.00
792.00
795.00
798.00
801.00
804.00
807.00
810.00
813.00
816.00
819.00
822.00
825.00
828.00
831.00
834.00
837.00
840.00
843.00
846.00
849.00
852.00
855.00
858.00
861.00
864.00
867.00
870.00
873.00
876.00
879.00
882.00
885.00
888.00
891.00
894.00
897.00
900.00

File: PolymerA_5.txt
"RawData"
"Wavelength nm."	"Abs."
300.00	0.051875
303.00	0.050236
306.00	0.048337
309.00	0.046887
312.00	0.045593
315.00	0.043778
318.00	0.042255
321.00	0.042260
324.00	0.041561
327.00	0.039882
330.00	0.040881
333.00	0.039978
336.00	0.039699
339.00	0.039348
342.00	0.038034
345.00	0.038655
348.00	0.039363
351.00	0.038778
354.00	0.038211
357.00	0.038047
360.00	0.037769
363.00	0.037682
366.00	0.037423
369.00	0.037065
372.00	0.036835
375.00	0.035951
378.00	0.036306
381.00	0.036702
384.00	0.036744
387.00	0.037700
390.00	0.037862
393.00	0.038969
396.00	0.040041
399.00	0.040831
402.00	0.042141
405.00	0.043252
408.00	0.044649
411.00	0.046135
414.00	0.046871
417.00	0.047881
420.00	0.048579
423.00	0.049868
426.00	0.051130
429.00	0.052201
432.00	0.053217
435.00	0.054286
438.00	0.055314
441.00	0.055816
444.00	0.055862
447.00	0.056148
450.00	0.055612
453.00	0.055406
456.00	0.054387
459.00	0.053708
462.00	0.052211
465.00	0.050548
468.00	0.049049
471.00	0.046905
474.00	0.044361
477.00	0.041880
480.00	0.038415
483.00	0.035553
486.00	0.032329
489.00	0.029113
492.00	0.025973
495.00	0.023329
498.00	0.021070
501.00	0.019073
504.00	0.017418
507.00	0.016319
510.00	0.015414
513.00	0.015025
516.00	0.014605
519.00	0.014476
522.00	0.014051
525.00	0.013999
528.00	0.014088
531.00	0.013718
534.00	0.013814
537.00	0.013380
540.00	0.013434
543.00	0.013092
546.00	0.013277
549.00	0.013322
552.00	0.013219
555.00	0.013173
558.00	0.012822
561.00	0.013083
564.00	0.012748
567.00	0.012664
570.00	0.012559
573.00	0.012604
576.00	0.012493
579.00	0.012384
582.00	0.012403
585.00	0.012025
588.00	0.012277
591.00	0.011961
594.00	0.011896
597.00	0.011913
600.00	0.011952
603.00	0.011897
606.00	0.011834
609.00	0.011598
612.00	0.011690
615.00	0.011591
618.00	0.011497
621.00	0.011364
624.00	0.011747
627.00	0.011545
630.00	0.011534
633.00	0.011584
636.00	0.011386
639.00	0.011615
642.00	0.011440
645.00	0.011023
648.00	0.011056
651.00	0.011376
654.00	0.010995
657.00	0.010899
660.00	0.010942
663.00	0.010858
666.00	0.010575
669.00	0.010849
672.00	0.010885
675.00	0.010919
678.00	0.010448
681.00	0.010556
684.00	0.010535
687.00	0.010627
690.00	0.010115
693.00	0.010226
696.00	0.010479
699.00	0.010129
702.00
705.00
708.00
711.00
714.00
717.00
720.00
723.00
726.00
729.00
732.00
735.00
738.00
741.00
744.00
747.00
750.00
753.00
756.00
759.00
762.00
765.00
768.00
771.00
774.00
777.00
780.00
783.00
786.00
789.00
792.00
795.00
798.00
801.00
804.00
807.00
810.00
813.00
816.00
819.00
822.00
825.00
828.00
831.00
834.00
837.00
840.00
843.00
846.00
849.00
852.00
855.00
858.00
861.00
864.00
867.00
870.00
873.00
876.00
879.00
882.00
885.00
888.00
891.00
894.00
897.00
900.00